Folder: NeuroEchemAnalysis_Gamry_MATLAB/Test_Data_Files

Note: Test_Data_Files/ElectrodeInfo.txt
Electrode Sites = PEDOT:PSS Electrodeposited on Gold

Diameter = 50 um
GSA = 1963.5 um^2

File: 20250509_IF0011_IIA42_PBSair_E01_C_CV50_PEDOT.DTA
EXPLAIN
TAG	CV
TITLE	LABEL	CV50	Test Identifier
DATE	LABEL	5/9/2025	Date
TIME	LABEL	16:20:31	Time
NOTES	NOTES	1	Notes...

PSTAT	PSTAT	REF600P-43058	Potentiostat
VINIT	POTEN	0.00000E+000	T	Initial E (V)
VLIMIT1	POTEN	-9.00000E-001	F	Scan Limit 1 (V)
VLIMIT2	POTEN	6.00000E-001	F	Scan Limit 2 (V)
VFINAL	POTEN	0.00000E+000	T	Final E (V)
SCANRATE	QUANT	4.99999E+001	Scan Rate (mV/s)
STEPSIZE	QUANT	1.00000E+001	Step Size (mV)
CYCLES	IQUANT	3	Cycles (#)
IMODE	SELECTOR	1	I/E Range Mode
IRANGE	QUANT	1.00000E-003	Max Current (mA)
AREA	QUANT	1.00000E+000	Sample Area (cm^2)
EQDELAY	QUANT	5.00000E+000	Equil. Time (s)
IRCOMP	SELECTOR	0	IRComp
PFCOR	QUANT	5.00000E+001	PF Corr. (ohm)
SAMPLINGMODE	SELECTOR	2	Sampling Mode
EOC	QUANT	0.3165924	Open Circuit (V)
ELECTRODETYPE	SELECTOR	0	Electrode Type
STRIPPING	TOGGLE	F	Used for Stripping
SEQUENCER	TOGGLE	TRUE	Run as Sequence
PSTATMODEL	IQUANT	7	Pstat Model
PSTATSECTION	LABEL	REF600P-43058	Pstat Section
PSTATSERIALNO	LABEL	43058	Pstat Serial Number
CTRLMODE	IQUANT	1	Control Mode
ELECTROMETER	IQUANT	0	RE=0 or CS=1
IESTAB	IQUANT	2	I/E Stability
CASPEED	IQUANT	4	Control Amp Speed
CONVENTION	IQUANT	1	Current Convention
ICHRANGE	IQUANT	2	Ich Range
ICHRANGEMODE	TOGGLE	F	Ich Auto Range
ICHOFFSETENABLE	TOGGLE	F	Ich Offset Enable
ICHOFFSET	QUANT	0	Ich Offset (V)
ICHFILTER	IQUANT	2	Ich Filter
VCHRANGE	IQUANT	2	Vch Range
VCHRANGEMODE	TOGGLE	F	Vch Auto Range
VCHOFFSETENABLE	TOGGLE	F	Vch Offset Enable
VCHOFFSET	QUANT	0	Vch Offset (V)
VCHFILTER	IQUANT	2	Vch Filter
ACHRANGE	IQUANT	2	Ach Range
ACHOFFSETENABLE	TOGGLE	F	Ach Offset Enable
ACHOFFSET	QUANT	0	Ach Offset (V)
ACHFILTER	IQUANT	1	Ach Filter
IERANGELOWERLIMIT	IQUANT	1	I/E Range Lower Limit
IERANGEMODE	TOGGLE	F	I/E AutoRange
IERANGE	IQUANT	6	I/E Range
POSFEEDENABLE	TOGGLE	F	Positive Feedback IR Comp
POSFEEDRESISTANCE	QUANT	0	Positive Feedback Resistance (ohm)
ACHSELECT	IQUANT	4	Ach Select
SENSECABLEID	IQUANT	7	Sense Cable ID
PWRCABLEID	IQUANT	7	Power Cable ID
DCCALDATE	LABEL	5/8/2025	DC Calibration Date
ACCALDATE	LABEL	5/8/2025	AC Calibration Date
THERMOSELECT	IQUANT	1	Thermo Select
FRAMEWORKVERSION	LABEL	7.10.4	Framework Version
INSTRUMENTVERSION	LABEL	5.01	Instrument Version
COMMVERSION	LABEL	5.10	Communications Version
CPUPLDVERSION	LABEL	6.00	CPU PLD Version
CTRLPLDVERSION	LABEL	3.21	CTRL PLD Version
PSTATPLDVERSION	LABEL	0.00	PSTAT PLD Version
CURVE1	TABLE
	Pt	T	Vf	Im	Vu	Sig	Ach	IERange	Over	Temp
	#	s	V vs. Ref.	A	V	V	V	#	bits	deg C
	0	0.2	3.16535E-001	7.67800E-010	0.00000E+000	3.16600E-001	1.39011E-003	6	...........	-327.66
	3	0.8	2.86494E-001	-1.66396E-010	0.00000E+000	2.86600E-001	1.39329E-003	6	...........	-327.66
	6	1.4	2.56643E-001	-1.91908E-010	0.00000E+000	2.56600E-001	1.38607E-003	6	...........	-327.66
	9	2	2.26606E-001	-2.72862E-010	0.00000E+000	2.26600E-001	1.38827E-003	6	...........	-327.66
	12	2.6	1.96622E-001	-2.49135E-010	0.00000E+000	1.96600E-001	1.39357E-003	6	...........	-327.66
	15	3.2	1.66655E-001	-2.90820E-010	0.00000E+000	1.66600E-001	1.38502E-003	6	...........	-327.66
	18	3.8	1.36703E-001	-3.22151E-010	0.00000E+000	1.36600E-001	1.39161E-003	6	...........	-327.66
	21	4.4	1.06606E-001	-4.36387E-010	0.00000E+000	1.06600E-001	1.39129E-003	6	...........	-327.66
	24	5	7.65947E-002	-4.37488E-010	0.00000E+000	7.66000E-002	1.38851E-003	6	...........	-327.66
	27	5.6	4.66462E-002	-4.48893E-010	0.00000E+000	4.66000E-002	1.39296E-003	6	...........	-327.66
	30	6.2	1.67164E-002	-5.56509E-010	0.00000E+000	1.66000E-002	1.39282E-003	6	...........	-327.66
	33	6.8	-1.34117E-002	-6.33278E-010	0.00000E+000	-1.34000E-002	1.39471E-003	6	...........	-327.66
	36	7.4	-4.34489E-002	-6.43266E-010	0.00000E+000	-4.34000E-002	1.39229E-003	6	...........	-327.66
	39	8	-7.34562E-002	-6.59757E-010	0.00000E+000	-7.34000E-002	1.38646E-003	6	...........	-327.66
	42	8.6	-1.03307E-001	-7.13782E-010	0.00000E+000	-1.03400E-001	1.39553E-003	6	...........	-327.66
	45	9.2	-1.33425E-001	-8.45543E-010	0.00000E+000	-1.33400E-001	1.39017E-003	6	...........	-327.66
	48	9.8	-1.63405E-001	-8.62334E-010	0.00000E+000	-1.63400E-001	1.38809E-003	6	...........	-327.66
	51	10.4	-1.93437E-001	-9.56644E-010	0.00000E+000	-1.93400E-001	1.39514E-003	6	...........	-327.66
	54	11	-2.23297E-001	-1.02176E-009	0.00000E+000	-2.23400E-001	1.39431E-003	6	...........	-327.66
	57	11.6	-2.53435E-001	-1.14706E-009	0.00000E+000	-2.53400E-001	1.39444E-003	6	...........	-327.66
	60	12.2	-2.83450E-001	-1.31924E-009	0.00000E+000	-2.83400E-001	1.39849E-003	6	...........	-327.66
	63	12.8	-3.13404E-001	-1.66659E-009	0.00000E+000	-3.13400E-001	1.38506E-003	6	...........	-327.66
	66	13.4	-3.43239E-001	-2.10436E-009	0.00000E+000	-3.43400E-001	1.39261E-003	6	...........	-327.66
	69	14	-3.73327E-001	-3.05409E-009	0.00000E+000	-3.73400E-001	1.39749E-003	6	...........	-327.66
	72	14.6	-4.03348E-001	-4.22982E-009	0.00000E+000	-4.03400E-001	1.39201E-003	6	...........	-327.66
	75	15.2	-4.33366E-001	-5.62424E-009	0.00000E+000	-4.33400E-001	1.39281E-003	6	...........	-327.66
	78	15.8	-4.63223E-001	-6.87687E-009	0.00000E+000	-4.63400E-001	1.39476E-003	6	...........	-327.66
	81	16.4	-4.93342E-001	-7.78679E-009	0.00000E+000	-4.93400E-001	1.39079E-003	6	...........	-327.66
	84	17	-5.23202E-001	-8.44564E-009	0.00000E+000	-5.23400E-001	1.39829E-003	6	...........	-327.66
	87	17.6	-5.53326E-001	-8.90284E-009	0.00000E+000	-5.53400E-001	1.39006E-003	6	...........	-327.66
	90	18.2	-5.83275E-001	-9.24503E-009	0.00000E+000	-5.83400E-001	1.39669E-003	6	...........	-327.66
	93	18.8	-6.13360E-001	-9.68783E-009	0.00000E+000	-6.13400E-001	1.39694E-003	6	...........	-327.66
	96	19.4	-6.43298E-001	-1.02237E-008	0.00000E+000	-6.43400E-001	1.39137E-003	6	...........	-327.66
	99	20	-6.73282E-001	-1.09209E-008	0.00000E+000	-6.73400E-001	1.39419E-003	6	...........	-327.66
	102	20.6	-7.03294E-001	-1.17015E-008	0.00000E+000	-7.03400E-001	1.39321E-003	6	...........	-327.66
	105	21.2	-7.33306E-001	-1.26453E-008	0.00000E+000	-7.33400E-001	1.38784E-003	6	...........	-327.66
	108	21.8	-7.63362E-001	-1.34475E-008	0.00000E+000	-7.63400E-001	1.40430E-003	6	...........	-327.66
	111	22.4	-7.93286E-001	-1.41147E-008	0.00000E+000	-7.93400E-001	1.38342E-003	6	...........	-327.66
	114	23	-8.23276E-001	-1.48579E-008	0.00000E+000	-8.23400E-001	1.38536E-003	6	...........	-327.66
	117	23.6	-8.53297E-001	-1.55609E-008	0.00000E+000	-8.53400E-001	1.39548E-003	6	...........	-327.66
	120	24.2	-8.83286E-001	-1.60634E-008	0.00000E+000	-8.83400E-001	1.39107E-003	6	...........	-327.66
	123	24.8	-8.93329E-001	-1.44021E-008	0.00000E+000	-8.93400E-001	1.38874E-003	6	...........	-327.66
	126	25.4	-8.63251E-001	-1.24487E-008	0.00000E+000	-8.63400E-001	1.39506E-003	6	...........	-327.66
	129	26	-8.33308E-001	-1.12220E-008	0.00000E+000	-8.33400E-001	1.39317E-003	6	...........	-327.66
	132	26.6	-8.03280E-001	-1.01377E-008	0.00000E+000	-8.03400E-001	1.39094E-003	6	...........	-327.66
	135	27.2	-7.73306E-001	-9.07428E-009	0.00000E+000	-7.73400E-001	1.40251E-003	6	...........	-327.66
	138	27.8	-7.43224E-001	-8.42160E-009	0.00000E+000	-7.43400E-001	1.40189E-003	6	...........	-327.66
	141	28.4	-7.13309E-001	-7.72551E-009	0.00000E+000	-7.13400E-001	1.39104E-003	6	...........	-327.66
	144	29	-6.83251E-001	-7.11775E-009	0.00000E+000	-6.83400E-001	1.40334E-003	6	...........	-327.66
[...]
	852	170.6	3.99971E-001	3.66168E-009	0.00000E+000	4.00000E-001	1.40401E-003	6	...........	-327.66
	855	171.2	4.29952E-001	4.05723E-009	0.00000E+000	4.30000E-001	1.41798E-003	6	...........	-327.66
	858	171.8	4.59975E-001	4.07652E-009	0.00000E+000	4.60000E-001	1.41522E-003	6	...........	-327.66
	861	172.4	4.89944E-001	3.91515E-009	0.00000E+000	4.90000E-001	1.40478E-003	6	...........	-327.66
	864	173	5.19964E-001	4.17023E-009	0.00000E+000	5.20000E-001	1.41573E-003	6	...........	-327.66
	867	173.6	5.49953E-001	4.25602E-009	0.00000E+000	5.50000E-001	1.41565E-003	6	...........	-327.66
	870	174.2	5.79970E-001	4.38633E-009	0.00000E+000	5.80000E-001	1.41813E-003	6	...........	-327.66
	872	174.6	5.99978E-001	4.60729E-009	0.00000E+000	6.00000E-001	1.41490E-003	6	...........	-327.66
CURVE4	TABLE
	Pt	T	Vf	Im	Vu	Sig	Ach	IERange	Over	Temp
	#	s	V vs. Ref.	A	V	V	V	#	bits	deg C
	873	174.8	5.89970E-001	1.84943E-009	0.00000E+000	5.90000E-001	1.40900E-003	6	...........	-327.66
	874	175	5.79984E-001	1.42397E-009	0.00000E+000	5.80000E-001	1.41151E-003	6	...........	-327.66
	875	175.2	5.69963E-001	1.27498E-009	0.00000E+000	5.70000E-001	1.40033E-003	6	...........	-327.66
	876	175.4	5.59970E-001	1.21236E-009	0.00000E+000	5.60000E-001	1.40446E-003	6	...........	-327.66
	877	175.6	5.49953E-001	1.09834E-009	0.00000E+000	5.50000E-001	1.40603E-003	6	...........	-327.66
	878	175.8	5.39988E-001	7.77705E-010	0.00000E+000	5.40000E-001	1.40865E-003	6	...........	-327.66
	879	176	5.29966E-001	7.87109E-010	0.00000E+000	5.30000E-001	1.40928E-003	6	...........	-327.66
	880	176.2	5.19966E-001	7.37870E-010	0.00000E+000	5.20000E-001	1.40535E-003	6	...........	-327.66
	881	176.4	5.09980E-001	6.80327E-010	0.00000E+000	5.10000E-001	1.41352E-003	6	...........	-327.66
	882	176.6	4.99982E-001	6.23834E-010	0.00000E+000	5.00000E-001	1.40800E-003	6	...........	-327.66
	883	176.8	4.89939E-001	6.10561E-010	0.00000E+000	4.90000E-001	1.40191E-003	6	...........	-327.66
	884	177	4.79981E-001	5.36877E-010	0.00000E+000	4.80000E-001	1.40203E-003	6	...........	-327.66
	885	177.2	4.69948E-001	5.36711E-010	0.00000E+000	4.70000E-001	1.40163E-003	6	...........	-327.66
	886	177.4	4.59985E-001	4.85687E-010	0.00000E+000	4.60000E-001	1.40748E-003	6	...........	-327.66
	887	177.6	4.49955E-001	4.85337E-010	0.00000E+000	4.50000E-001	1.40626E-003	6	...........	-327.66
	888	177.8	4.39969E-001	4.53022E-010	0.00000E+000	4.40000E-001	1.40496E-003	6	...........	-327.66
	889	178	4.29988E-001	4.99877E-010	0.00000E+000	4.30000E-001	1.41288E-003	6	...........	-327.66
	890	178.2	4.19990E-001	4.66845E-010	0.00000E+000	4.20000E-001	1.40828E-003	6	...........	-327.66
	891	178.4	4.09971E-001	4.41984E-010	0.00000E+000	4.10000E-001	1.39588E-003	6	...........	-327.66
	892	178.6	3.99991E-001	3.67233E-010	0.00000E+000	4.00000E-001	1.39943E-003	6	...........	-327.66
	893	178.8	3.89967E-001	3.89926E-010	0.00000E+000	3.90000E-001	1.40888E-003	6	...........	-327.66
	894	179	3.79991E-001	3.23079E-010	0.00000E+000	3.80000E-001	1.40366E-003	6	...........	-327.66
	895	179.2	3.69973E-001	3.56561E-010	0.00000E+000	3.70000E-001	1.41056E-003	6	...........	-327.66
	896	179.4	3.59986E-001	3.03587E-010	0.00000E+000	3.60000E-001	1.40385E-003	6	...........	-327.66
	897	179.6	3.50000E-001	2.99735E-010	0.00000E+000	3.50000E-001	1.40646E-003	6	...........	-327.66
	898	179.8	3.39991E-001	2.37306E-010	0.00000E+000	3.40000E-001	1.40591E-003	6	...........	-327.66
	899	180	3.29997E-001	2.64469E-010	0.00000E+000	3.30000E-001	1.40134E-003	6	...........	-327.66
	900	180.2	3.19984E-001	1.93970E-010	0.00000E+000	3.20000E-001	1.39893E-003	6	...........	-327.66

File: 20250509_IF0011_IIA42_PBSair_E01_D_CV5000_PEDOT.DTA
EXPLAIN
TAG	CV
TITLE	LABEL	CV5000	Test Identifier
DATE	LABEL	5/9/2025	Date
TIME	LABEL	16:23:41	Time
NOTES	NOTES	1	Notes...

PSTAT	PSTAT	REF600P-43058	Potentiostat
VINIT	POTEN	0.00000E+000	T	Initial E (V)
VLIMIT1	POTEN	-9.00000E-001	F	Scan Limit 1 (V)
VLIMIT2	POTEN	6.00000E-001	F	Scan Limit 2 (V)
VFINAL	POTEN	0.00000E+000	T	Final E (V)
SCANRATE	QUANT	4.99999E+003	Scan Rate (mV/s)
STEPSIZE	QUANT	1.00000E+001	Step Size (mV)
CYCLES	IQUANT	3	Cycles (#)
IMODE	SELECTOR	1	I/E Range Mode
IRANGE	QUANT	1.00000E-002	Max Current (mA)
AREA	QUANT	1.00000E+000	Sample Area (cm^2)
EQDELAY	QUANT	5.00000E+000	Equil. Time (s)
IRCOMP	SELECTOR	0	IRComp
PFCOR	QUANT	5.00000E+001	PF Corr. (ohm)
SAMPLINGMODE	SELECTOR	2	Sampling Mode
EOC	QUANT	0.3165924	Open Circuit (V)
ELECTRODETYPE	SELECTOR	0	Electrode Type
STRIPPING	TOGGLE	F	Used for Stripping
SEQUENCER	TOGGLE	TRUE	Run as Sequence
PSTATMODEL	IQUANT	7	Pstat Model
PSTATSECTION	LABEL	REF600P-43058	Pstat Section
PSTATSERIALNO	LABEL	43058	Pstat Serial Number
CTRLMODE	IQUANT	1	Control Mode
ELECTROMETER	IQUANT	0	RE=0 or CS=1
IESTAB	IQUANT	2	I/E Stability
CASPEED	IQUANT	4	Control Amp Speed
CONVENTION	IQUANT	1	Current Convention
ICHRANGE	IQUANT	2	Ich Range
ICHRANGEMODE	TOGGLE	F	Ich Auto Range
ICHOFFSETENABLE	TOGGLE	F	Ich Offset Enable
ICHOFFSET	QUANT	0	Ich Offset (V)
ICHFILTER	IQUANT	2	Ich Filter
VCHRANGE	IQUANT	2	Vch Range
VCHRANGEMODE	TOGGLE	F	Vch Auto Range
VCHOFFSETENABLE	TOGGLE	F	Vch Offset Enable
VCHOFFSET	QUANT	0	Vch Offset (V)
VCHFILTER	IQUANT	2	Vch Filter
ACHRANGE	IQUANT	2	Ach Range
ACHOFFSETENABLE	TOGGLE	F	Ach Offset Enable
ACHOFFSET	QUANT	0	Ach Offset (V)
ACHFILTER	IQUANT	1	Ach Filter
IERANGELOWERLIMIT	IQUANT	1	I/E Range Lower Limit
IERANGEMODE	TOGGLE	F	I/E AutoRange
IERANGE	IQUANT	7	I/E Range
POSFEEDENABLE	TOGGLE	F	Positive Feedback IR Comp
POSFEEDRESISTANCE	QUANT	0	Positive Feedback Resistance (ohm)
ACHSELECT	IQUANT	4	Ach Select
SENSECABLEID	IQUANT	7	Sense Cable ID
PWRCABLEID	IQUANT	7	Power Cable ID
DCCALDATE	LABEL	5/8/2025	DC Calibration Date
ACCALDATE	LABEL	5/8/2025	AC Calibration Date
THERMOSELECT	IQUANT	1	Thermo Select
FRAMEWORKVERSION	LABEL	7.10.4	Framework Version
INSTRUMENTVERSION	LABEL	5.01	Instrument Version
COMMVERSION	LABEL	5.10	Communications Version
CPUPLDVERSION	LABEL	6.00	CPU PLD Version
CTRLPLDVERSION	LABEL	3.21	CTRL PLD Version
PSTATPLDVERSION	LABEL	0.00	PSTAT PLD Version
CURVE1	TABLE
	Pt	T	Vf	Im	Vu	Sig	Ach	IERange	Over	Temp
	#	s	V vs. Ref.	A	V	V	V	#	bits	deg C
	0	0.002	3.16557E-001	1.09415E-008	0.00000E+000	3.16600E-001	1.35919E-003	7	...........	-327.66
	3	0.008	2.87313E-001	-9.01584E-008	0.00000E+000	2.86600E-001	1.41781E-003	7	...........	-327.66
	6	0.014	2.57380E-001	-9.36417E-008	0.00000E+000	2.56600E-001	1.42126E-003	7	...........	-327.66
	9	0.02	2.27381E-001	-9.65559E-008	0.00000E+000	2.26600E-001	1.36609E-003	7	...........	-327.66
	12	0.026	1.97444E-001	-1.00281E-007	0.00000E+000	1.96600E-001	1.35574E-003	7	...........	-327.66
	15	0.032	1.67438E-001	-1.04833E-007	0.00000E+000	1.66600E-001	1.38505E-003	7	...........	-327.66
	18	0.038	1.37467E-001	-1.08575E-007	0.00000E+000	1.36600E-001	1.41436E-003	7	...........	-327.66
	21	0.044	1.07420E-001	-1.13696E-007	0.00000E+000	1.06600E-001	1.41609E-003	7	...........	-327.66
	24	0.05	7.73747E-002	-1.18783E-007	0.00000E+000	7.66000E-002	1.42643E-003	7	...........	-327.66
	27	0.056	4.74178E-002	-1.23008E-007	0.00000E+000	4.66000E-002	1.39712E-003	7	...........	-327.66
	30	0.062	1.74178E-002	-1.28267E-007	0.00000E+000	1.66000E-002	1.40057E-003	7	...........	-327.66
	33	0.068	-1.25546E-002	-1.32595E-007	0.00000E+000	-1.34000E-002	1.39712E-003	7	...........	-327.66
	36	0.074	-4.26037E-002	-1.36751E-007	0.00000E+000	-4.34000E-002	1.42126E-003	7	...........	-327.66
	39	0.08	-7.25908E-002	-1.41665E-007	0.00000E+000	-7.34000E-002	1.43333E-003	7	...........	-327.66
	42	0.086	-1.02606E-001	-1.43890E-007	0.00000E+000	-1.03400E-001	1.39884E-003	7	...........	-327.66
	45	0.092	-1.32606E-001	-1.47373E-007	0.00000E+000	-1.33400E-001	1.41781E-003	7	...........	-327.66
	48	0.098	-1.62605E-001	-1.49977E-007	0.00000E+000	-1.63400E-001	1.39367E-003	7	...........	-327.66
	51	0.104	-1.92571E-001	-1.51994E-007	0.00000E+000	-1.93400E-001	1.36264E-003	7	...........	-327.66
	54	0.11	-2.22512E-001	-1.54391E-007	0.00000E+000	-2.23400E-001	1.38505E-003	7	...........	-327.66
	57	0.116	-2.52583E-001	-1.56495E-007	0.00000E+000	-2.53400E-001	1.38850E-003	7	...........	-327.66
	60	0.122	-2.82541E-001	-1.57892E-007	0.00000E+000	-2.83400E-001	1.42643E-003	7	...........	-327.66
	63	0.128	-3.12603E-001	-1.60151E-007	0.00000E+000	-3.13400E-001	1.38160E-003	7	...........	-327.66
	66	0.134	-3.42519E-001	-1.62030E-007	0.00000E+000	-3.43400E-001	1.41436E-003	7	...........	-327.66
	69	0.14	-3.72535E-001	-1.65013E-007	0.00000E+000	-3.73400E-001	1.36609E-003	7	...........	-327.66
	72	0.146	-4.02574E-001	-1.68083E-007	0.00000E+000	-4.03400E-001	1.42815E-003	7	...........	-327.66
	75	0.152	-4.32566E-001	-1.71187E-007	0.00000E+000	-4.33400E-001	1.40747E-003	7	...........	-327.66
	78	0.158	-4.62502E-001	-1.73687E-007	0.00000E+000	-4.63400E-001	1.38678E-003	7	...........	-327.66
	81	0.164	-4.92509E-001	-1.77015E-007	0.00000E+000	-4.93400E-001	1.38505E-003	7	...........	-327.66
	84	0.17	-5.22491E-001	-1.77308E-007	0.00000E+000	-5.23400E-001	1.38333E-003	7	...........	-327.66
	87	0.176	-5.52561E-001	-1.79291E-007	0.00000E+000	-5.53400E-001	1.38333E-003	7	...........	-327.66
	90	0.182	-5.82502E-001	-1.81740E-007	0.00000E+000	-5.83400E-001	1.38333E-003	7	...........	-327.66
	93	0.188	-6.12561E-001	-1.84257E-007	0.00000E+000	-6.13400E-001	1.37471E-003	7	...........	-327.66
	96	0.194	-6.42542E-001	-1.86465E-007	0.00000E+000	-6.43400E-001	1.40229E-003	7	...........	-327.66
	99	0.2	-6.72493E-001	-1.88396E-007	0.00000E+000	-6.73400E-001	1.39712E-003	7	...........	-327.66
	102	0.206	-7.02481E-001	-1.90620E-007	0.00000E+000	-7.03400E-001	1.41436E-003	7	...........	-327.66
	105	0.212	-7.32491E-001	-1.92759E-007	0.00000E+000	-7.33400E-001	1.41609E-003	7	...........	-327.66
	108	0.218	-7.62529E-001	-1.95242E-007	0.00000E+000	-7.63400E-001	1.38333E-003	7	...........	-327.66
	111	0.224	-7.92548E-001	-1.93810E-007	0.00000E+000	-7.93400E-001	1.37815E-003	7	...........	-327.66
	114	0.23	-8.22471E-001	-1.85120E-007	0.00000E+000	-8.23400E-001	1.41609E-003	7	...........	-327.66
	117	0.236	-8.52510E-001	-1.63772E-007	0.00000E+000	-8.53400E-001	1.41609E-003	7	...........	-327.66
	120	0.242	-8.82489E-001	-1.36268E-007	0.00000E+000	-8.83400E-001	1.40229E-003	7	...........	-327.66
	123	0.248	-8.94127E-001	-3.07710E-008	0.00000E+000	-8.93400E-001	1.39540E-003	7	...........	-327.66
	126	0.254	-8.64118E-001	2.18913E-008	0.00000E+000	-8.63400E-001	1.40574E-003	7	...........	-327.66
	129	0.26	-8.34105E-001	5.75341E-008	0.00000E+000	-8.33400E-001	1.43505E-003	7	...........	-327.66
	132	0.266	-8.04073E-001	8.75554E-008	0.00000E+000	-8.03400E-001	1.37815E-003	7	...........	-327.66
	135	0.272	-7.74099E-001	1.07851E-007	0.00000E+000	-7.73400E-001	1.41609E-003	7	...........	-327.66
	138	0.278	-7.44108E-001	1.18939E-007	0.00000E+000	-7.43400E-001	1.45747E-003	7	...........	-327.66
	141	0.284	-7.14119E-001	1.24095E-007	0.00000E+000	-7.13400E-001	1.39540E-003	7	...........	-327.66
	144	0.29	-6.84100E-001	1.31510E-007	0.00000E+000	-6.83400E-001	1.40747E-003	7	...........	-327.66
[...]
	852	1.706	3.99182E-001	1.66083E-007	0.00000E+000	4.00000E-001	1.38160E-003	7	...........	-327.66
	855	1.712	4.29195E-001	1.65394E-007	0.00000E+000	4.30000E-001	1.37815E-003	7	...........	-327.66
	858	1.718	4.59173E-001	1.65980E-007	0.00000E+000	4.60000E-001	1.39195E-003	7	...........	-327.66
	861	1.724	4.89161E-001	1.66808E-007	0.00000E+000	4.90000E-001	1.37126E-003	7	...........	-327.66
	864	1.73	5.19183E-001	1.67204E-007	0.00000E+000	5.20000E-001	1.43505E-003	7	...........	-327.66
	867	1.736	5.49179E-001	1.69515E-007	0.00000E+000	5.50000E-001	1.39367E-003	7	...........	-327.66
	870	1.742	5.79191E-001	1.72964E-007	0.00000E+000	5.80000E-001	1.40747E-003	7	...........	-327.66
	872	1.746	5.99179E-001	1.76430E-007	0.00000E+000	6.00000E-001	1.39540E-003	7	...........	-327.66
CURVE4	TABLE
	Pt	T	Vf	Im	Vu	Sig	Ach	IERange	Over	Temp
	#	s	V vs. Ref.	A	V	V	V	#	bits	deg C
	873	1.748	5.90743E-001	-4.84286E-008	0.00000E+000	5.90000E-001	1.38850E-003	7	...........	-327.66
	874	1.75	5.80771E-001	-6.21029E-008	0.00000E+000	5.80000E-001	1.40229E-003	7	...........	-327.66
	875	1.752	5.70745E-001	-6.92935E-008	0.00000E+000	5.70000E-001	1.39367E-003	7	...........	-327.66
	876	1.754	5.60744E-001	-7.35700E-008	0.00000E+000	5.60000E-001	1.37471E-003	7	...........	-327.66
	877	1.756	5.50774E-001	-7.79499E-008	0.00000E+000	5.50000E-001	1.35574E-003	7	...........	-327.66
	878	1.758	5.40766E-001	-8.25712E-008	0.00000E+000	5.40000E-001	1.33505E-003	7	...........	-327.66
	879	1.76	5.30738E-001	-8.49336E-008	0.00000E+000	5.30000E-001	1.41091E-003	7	...........	-327.66
	880	1.762	5.20743E-001	-8.65717E-008	0.00000E+000	5.20000E-001	1.35747E-003	7	...........	-327.66
	881	1.764	5.10766E-001	-8.86755E-008	0.00000E+000	5.10000E-001	1.39540E-003	7	...........	-327.66
	882	1.766	5.00772E-001	-8.97446E-008	0.00000E+000	5.00000E-001	1.38160E-003	7	...........	-327.66
	883	1.768	4.90733E-001	-9.12275E-008	0.00000E+000	4.90000E-001	1.40574E-003	7	...........	-327.66
	884	1.77	4.80742E-001	-9.20897E-008	0.00000E+000	4.80000E-001	1.39022E-003	7	...........	-327.66
	885	1.772	4.70730E-001	-9.38141E-008	0.00000E+000	4.70000E-001	1.35402E-003	7	...........	-327.66
	886	1.774	4.60763E-001	-9.46246E-008	0.00000E+000	4.60000E-001	1.41264E-003	7	...........	-327.66
	887	1.776	4.50820E-001	-9.60041E-008	0.00000E+000	4.50000E-001	1.39022E-003	7	...........	-327.66
	888	1.778	4.40750E-001	-9.72801E-008	0.00000E+000	4.40000E-001	1.39367E-003	7	...........	-327.66
	889	1.78	4.30755E-001	-9.79698E-008	0.00000E+000	4.30000E-001	1.37643E-003	7	...........	-327.66
	890	1.782	4.20771E-001	-9.91424E-008	0.00000E+000	4.20000E-001	1.40057E-003	7	...........	-327.66
	891	1.784	4.10751E-001	-9.95045E-008	0.00000E+000	4.10000E-001	1.37298E-003	7	...........	-327.66
	892	1.786	4.00777E-001	-9.98839E-008	0.00000E+000	4.00000E-001	1.41609E-003	7	...........	-327.66
	893	1.788	3.90763E-001	-1.01143E-007	0.00000E+000	3.90000E-001	1.41781E-003	7	...........	-327.66
	894	1.79	3.80771E-001	-1.01832E-007	0.00000E+000	3.80000E-001	1.42298E-003	7	...........	-327.66
	895	1.792	3.70763E-001	-1.02246E-007	0.00000E+000	3.70000E-001	1.38160E-003	7	...........	-327.66
	896	1.794	3.60746E-001	-1.03850E-007	0.00000E+000	3.60000E-001	1.33160E-003	7	...........	-327.66
	897	1.796	3.50786E-001	-1.04678E-007	0.00000E+000	3.50000E-001	1.39022E-003	7	...........	-327.66
	898	1.798	3.40797E-001	-1.05298E-007	0.00000E+000	3.40000E-001	1.37298E-003	7	...........	-327.66
	899	1.8	3.30779E-001	-1.06126E-007	0.00000E+000	3.30000E-001	1.43160E-003	7	...........	-327.66
	900	1.802	3.20759E-001	-1.06695E-007	0.00000E+000	3.20000E-001	1.39195E-003	7	...........	-327.66