Folder: NeuroEchemAnalysis_Gamry_MATLAB/Test_Data_Files (part 6)

File: 20250509_IF0011_IIA42_PBSair_E04_D_CV5000_PEDOT.DTA
EXPLAIN
TAG	CV
TITLE	LABEL	CV5000	Test Identifier
DATE	LABEL	5/9/2025	Date
TIME	LABEL	14:56:54	Time
NOTES	NOTES	1	Notes...

PSTAT	PSTAT	REF600P-43058	Potentiostat
VINIT	POTEN	0.00000E+000	T	Initial E (V)
VLIMIT1	POTEN	-9.00000E-001	F	Scan Limit 1 (V)
VLIMIT2	POTEN	6.00000E-001	F	Scan Limit 2 (V)
VFINAL	POTEN	0.00000E+000	T	Final E (V)
SCANRATE	QUANT	4.99999E+003	Scan Rate (mV/s)
STEPSIZE	QUANT	1.00000E+001	Step Size (mV)
CYCLES	IQUANT	3	Cycles (#)
IMODE	SELECTOR	1	I/E Range Mode
IRANGE	QUANT	1.00000E-002	Max Current (mA)
AREA	QUANT	1.00000E+000	Sample Area (cm^2)
EQDELAY	QUANT	5.00000E+000	Equil. Time (s)
IRCOMP	SELECTOR	0	IRComp
PFCOR	QUANT	5.00000E+001	PF Corr. (ohm)
SAMPLINGMODE	SELECTOR	2	Sampling Mode
EOC	QUANT	0.1683657	Open Circuit (V)
ELECTRODETYPE	SELECTOR	0	Electrode Type
STRIPPING	TOGGLE	F	Used for Stripping
SEQUENCER	TOGGLE	TRUE	Run as Sequence
PSTATMODEL	IQUANT	7	Pstat Model
PSTATSECTION	LABEL	REF600P-43058	Pstat Section
PSTATSERIALNO	LABEL	43058	Pstat Serial Number
CTRLMODE	IQUANT	1	Control Mode
ELECTROMETER	IQUANT	0	RE=0 or CS=1
IESTAB	IQUANT	2	I/E Stability
CASPEED	IQUANT	4	Control Amp Speed
CONVENTION	IQUANT	1	Current Convention
ICHRANGE	IQUANT	2	Ich Range
ICHRANGEMODE	TOGGLE	F	Ich Auto Range
ICHOFFSETENABLE	TOGGLE	F	Ich Offset Enable
ICHOFFSET	QUANT	0	Ich Offset (V)
ICHFILTER	IQUANT	2	Ich Filter
VCHRANGE	IQUANT	2	Vch Range
VCHRANGEMODE	TOGGLE	F	Vch Auto Range
VCHOFFSETENABLE	TOGGLE	F	Vch Offset Enable
VCHOFFSET	QUANT	0	Vch Offset (V)
VCHFILTER	IQUANT	2	Vch Filter
ACHRANGE	IQUANT	2	Ach Range
ACHOFFSETENABLE	TOGGLE	F	Ach Offset Enable
ACHOFFSET	QUANT	0	Ach Offset (V)
ACHFILTER	IQUANT	1	Ach Filter
IERANGELOWERLIMIT	IQUANT	1	I/E Range Lower Limit
IERANGEMODE	TOGGLE	F	I/E AutoRange
IERANGE	IQUANT	7	I/E Range
POSFEEDENABLE	TOGGLE	F	Positive Feedback IR Comp
POSFEEDRESISTANCE	QUANT	0	Positive Feedback Resistance (ohm)
ACHSELECT	IQUANT	4	Ach Select
SENSECABLEID	IQUANT	7	Sense Cable ID
PWRCABLEID	IQUANT	7	Power Cable ID
DCCALDATE	LABEL	5/8/2025	DC Calibration Date
ACCALDATE	LABEL	5/8/2025	AC Calibration Date
THERMOSELECT	IQUANT	1	Thermo Select
FRAMEWORKVERSION	LABEL	7.10.4	Framework Version
INSTRUMENTVERSION	LABEL	5.01	Instrument Version
COMMVERSION	LABEL	5.10	Communications Version
CPUPLDVERSION	LABEL	6.00	CPU PLD Version
CTRLPLDVERSION	LABEL	3.21	CTRL PLD Version
PSTATPLDVERSION	LABEL	0.00	PSTAT PLD Version
CURVE1	TABLE
	Pt	T	Vf	Im	Vu	Sig	Ach	IERange	Over	Temp
	#	s	V vs. Ref.	A	V	V	V	#	bits	deg C
	0	0.002	1.68536E-001	9.56205E-009	0.00000E+000	1.68350E-001	1.37471E-003	7	...........	-327.66
	3	0.008	1.39233E-001	-1.27775E-006	0.00000E+000	1.38350E-001	1.46781E-003	7	...........	-327.66
	6	0.014	1.09179E-001	-1.82160E-006	0.00000E+000	1.08350E-001	1.48333E-003	7	...........	-327.66
	9	0.02	7.91523E-002	-2.22881E-006	0.00000E+000	7.83500E-002	1.48678E-003	7	...........	-327.66
	12	0.026	4.92161E-002	-2.56588E-006	0.00000E+000	4.83500E-002	1.39712E-003	7	...........	-327.66
	15	0.032	1.91980E-002	-2.85836E-006	0.00000E+000	1.83500E-002	1.49884E-003	7	...........	-327.66
	18	0.038	-1.07442E-002	-3.11424E-006	0.00000E+000	-1.16500E-002	1.50574E-003	7	...........	-327.66
	21	0.044	-4.08201E-002	-3.34483E-006	0.00000E+000	-4.16500E-002	1.42126E-003	7	...........	-327.66
	24	0.05	-7.08287E-002	-3.55558E-006	0.00000E+000	-7.16500E-002	1.44884E-003	7	...........	-327.66
	27	0.056	-1.00823E-001	-3.74643E-006	0.00000E+000	-1.01650E-001	1.37988E-003	7	...........	-327.66
	30	0.062	-1.30830E-001	-3.92453E-006	0.00000E+000	-1.31650E-001	1.48160E-003	7	...........	-327.66
	33	0.068	-1.60824E-001	-4.09276E-006	0.00000E+000	-1.61650E-001	1.41953E-003	7	...........	-327.66
	36	0.074	-1.90777E-001	-4.25021E-006	0.00000E+000	-1.91650E-001	1.40057E-003	7	...........	-327.66
	39	0.08	-2.20754E-001	-4.40063E-006	0.00000E+000	-2.21650E-001	1.46264E-003	7	...........	-327.66
	42	0.086	-2.50780E-001	-4.54264E-006	0.00000E+000	-2.51650E-001	1.46091E-003	7	...........	-327.66
	45	0.092	-2.80802E-001	-4.67361E-006	0.00000E+000	-2.81650E-001	1.46781E-003	7	...........	-327.66
	48	0.098	-3.10800E-001	-4.79554E-006	0.00000E+000	-3.11650E-001	1.50747E-003	7	...........	-327.66
	51	0.104	-3.40792E-001	-4.90581E-006	0.00000E+000	-3.41650E-001	1.52988E-003	7	...........	-327.66
	54	0.11	-3.70752E-001	-5.00024E-006	0.00000E+000	-3.71650E-001	1.39022E-003	7	...........	-327.66
	57	0.116	-4.00790E-001	-5.07820E-006	0.00000E+000	-4.01650E-001	1.50574E-003	7	...........	-327.66
	60	0.122	-4.30781E-001	-5.13900E-006	0.00000E+000	-4.31650E-001	1.50919E-003	7	...........	-327.66
	63	0.128	-4.60777E-001	-5.18308E-006	0.00000E+000	-4.61650E-001	1.46436E-003	7	...........	-327.66
	66	0.134	-4.90778E-001	-5.20996E-006	0.00000E+000	-4.91650E-001	1.45402E-003	7	...........	-327.66
	69	0.14	-5.20819E-001	-5.22062E-006	0.00000E+000	-5.21650E-001	1.43160E-003	7	...........	-327.66
	72	0.146	-5.50738E-001	-5.21141E-006	0.00000E+000	-5.51650E-001	1.52643E-003	7	...........	-327.66
	75	0.152	-5.80755E-001	-5.17018E-006	0.00000E+000	-5.81650E-001	1.41953E-003	7	...........	-327.66
	78	0.158	-6.10784E-001	-5.07636E-006	0.00000E+000	-6.11650E-001	1.44195E-003	7	...........	-327.66
	81	0.164	-6.40766E-001	-4.89768E-006	0.00000E+000	-6.41650E-001	1.47643E-003	7	...........	-327.66
	84	0.17	-6.70676E-001	-4.59798E-006	0.00000E+000	-6.71650E-001	1.48160E-003	7	...........	-327.66
	87	0.176	-7.00718E-001	-4.15452E-006	0.00000E+000	-7.01650E-001	1.39884E-003	7	...........	-327.66
	90	0.182	-7.30726E-001	-3.58791E-006	0.00000E+000	-7.31650E-001	1.49367E-003	7	...........	-327.66
	93	0.188	-7.60747E-001	-2.96353E-006	0.00000E+000	-7.61650E-001	1.47126E-003	7	...........	-327.66
	96	0.194	-7.90745E-001	-2.37145E-006	0.00000E+000	-7.91650E-001	1.38850E-003	7	...........	-327.66
	99	0.2	-8.20777E-001	-1.88001E-006	0.00000E+000	-8.21650E-001	1.42298E-003	7	...........	-327.66
	102	0.206	-8.50735E-001	-1.52127E-006	0.00000E+000	-8.51650E-001	1.51436E-003	7	...........	-327.66
	105	0.212	-8.80744E-001	-1.27965E-006	0.00000E+000	-8.81650E-001	1.47988E-003	7	...........	-327.66
	108	0.218	-8.92367E-001	-1.01401E-006	0.00000E+000	-8.91650E-001	1.47298E-003	7	...........	-327.66
	111	0.224	-8.62362E-001	-7.57767E-007	0.00000E+000	-8.61650E-001	1.44195E-003	7	...........	-327.66
	114	0.23	-8.32175E-001	-6.01539E-007	0.00000E+000	-8.31650E-001	1.52298E-003	7	...........	-327.66
	117	0.236	-8.02365E-001	-4.70900E-007	0.00000E+000	-8.01650E-001	1.46781E-003	7	...........	-327.66
	120	0.242	-7.72315E-001	-3.41900E-007	0.00000E+000	-7.71650E-001	1.45057E-003	7	...........	-327.66
	123	0.248	-7.42368E-001	-1.92293E-007	0.00000E+000	-7.41650E-001	1.43850E-003	7	...........	-327.66
	126	0.254	-7.12366E-001	-1.85330E-009	0.00000E+000	-7.11650E-001	1.42988E-003	7	...........	-327.66
	129	0.26	-6.82386E-001	2.51216E-007	0.00000E+000	-6.81650E-001	1.50919E-003	7	...........	-327.66
	132	0.266	-6.52336E-001	5.91072E-007	0.00000E+000	-6.51650E-001	1.47643E-003	7	...........	-327.66
	135	0.272	-6.22378E-001	1.05113E-006	0.00000E+000	-6.21650E-001	1.42471E-003	7	...........	-327.66
	138	0.278	-5.92367E-001	1.66058E-006	0.00000E+000	-5.91650E-001	1.44884E-003	7	...........	-327.66
	141	0.284	-5.62417E-001	2.45026E-006	0.00000E+000	-5.61650E-001	1.48333E-003	7	...........	-327.66
	144	0.29	-5.32407E-001	3.40959E-006	0.00000E+000	-5.31650E-001	1.43505E-003	7	...........	-327.66
[...]
	864	1.73	5.30779E-001	8.59173E-008	0.00000E+000	5.30000E-001	1.44884E-003	7	...........	-327.66
	865	1.732	5.20755E-001	-1.81033E-007	0.00000E+000	5.20000E-001	1.48505E-003	7	...........	-327.66
	866	1.734	5.10771E-001	-4.21428E-007	0.00000E+000	5.10000E-001	1.46091E-003	7	...........	-327.66
	867	1.736	5.00814E-001	-6.41596E-007	0.00000E+000	5.00000E-001	1.42126E-003	7	...........	-327.66
	868	1.738	4.90752E-001	-8.44089E-007	0.00000E+000	4.90000E-001	1.42126E-003	7	...........	-327.66
	869	1.74	4.80752E-001	-1.03048E-006	0.00000E+000	4.80000E-001	1.42643E-003	7	...........	-327.66
	870	1.742	4.70770E-001	-1.20288E-006	0.00000E+000	4.70000E-001	1.40057E-003	7	...........	-327.66
	871	1.744	4.60785E-001	-1.36325E-006	0.00000E+000	4.60000E-001	1.40229E-003	7	...........	-327.66
	872	1.746	4.50820E-001	-1.51215E-006	0.00000E+000	4.50000E-001	1.39884E-003	7	...........	-327.66
	873	1.748	4.40754E-001	-1.65296E-006	0.00000E+000	4.40000E-001	1.42298E-003	7	...........	-327.66
	874	1.75	4.30773E-001	-1.78263E-006	0.00000E+000	4.30000E-001	1.39195E-003	7	...........	-327.66
	875	1.752	4.20814E-001	-1.90399E-006	0.00000E+000	4.20000E-001	1.49195E-003	7	...........	-327.66
	876	1.754	4.10773E-001	-2.01797E-006	0.00000E+000	4.10000E-001	1.45574E-003	7	...........	-327.66
	877	1.756	4.00813E-001	-2.12621E-006	0.00000E+000	4.00000E-001	1.49884E-003	7	...........	-327.66
	878	1.758	3.90802E-001	-2.22986E-006	0.00000E+000	3.90000E-001	1.49367E-003	7	...........	-327.66
	879	1.76	3.80807E-001	-2.32503E-006	0.00000E+000	3.80000E-001	1.49884E-003	7	...........	-327.66
	880	1.762	3.70825E-001	-2.41523E-006	0.00000E+000	3.70000E-001	1.46436E-003	7	...........	-327.66
	881	1.764	3.60782E-001	-2.50318E-006	0.00000E+000	3.60000E-001	1.46953E-003	7	...........	-327.66
	882	1.766	3.50814E-001	-2.58598E-006	0.00000E+000	3.50000E-001	1.42988E-003	7	...........	-327.66
	883	1.768	3.40817E-001	-2.66354E-006	0.00000E+000	3.40000E-001	1.50402E-003	7	...........	-327.66
	884	1.77	3.30827E-001	-2.73766E-006	0.00000E+000	3.30000E-001	1.46091E-003	7	...........	-327.66
	885	1.772	3.20792E-001	-2.80886E-006	0.00000E+000	3.20000E-001	1.47643E-003	7	...........	-327.66
	886	1.774	3.10783E-001	-2.87783E-006	0.00000E+000	3.10000E-001	1.48678E-003	7	...........	-327.66
	887	1.776	3.00811E-001	-2.94422E-006	0.00000E+000	3.00000E-001	1.53160E-003	7	...........	-327.66
	888	1.778	2.90810E-001	-3.00669E-006	0.00000E+000	2.90000E-001	1.49540E-003	7	...........	-327.66
	889	1.78	2.80790E-001	-3.06824E-006	0.00000E+000	2.80000E-001	1.50574E-003	7	...........	-327.66
	890	1.782	2.70854E-001	-3.12706E-006	0.00000E+000	2.70000E-001	1.46264E-003	7	...........	-327.66
	891	1.784	2.60792E-001	-3.18375E-006	0.00000E+000	2.60000E-001	1.46781E-003	7	...........	-327.66
	892	1.786	2.50825E-001	-3.23747E-006	0.00000E+000	2.50000E-001	1.44540E-003	7	...........	-327.66
	893	1.788	2.40809E-001	-3.29189E-006	0.00000E+000	2.40000E-001	1.42126E-003	7	...........	-327.66
	894	1.79	2.30791E-001	-3.34271E-006	0.00000E+000	2.30000E-001	1.42988E-003	7	...........	-327.66
	895	1.792	2.20832E-001	-3.39342E-006	0.00000E+000	2.20000E-001	1.48333E-003	7	...........	-327.66
	896	1.794	2.10789E-001	-3.44260E-006	0.00000E+000	2.10000E-001	1.47988E-003	7	...........	-327.66
	897	1.796	2.00825E-001	-3.48990E-006	0.00000E+000	2.00000E-001	1.43333E-003	7	...........	-327.66
	898	1.798	1.90842E-001	-3.53642E-006	0.00000E+000	1.90000E-001	1.41091E-003	7	...........	-327.66
	899	1.8	1.80820E-001	-3.58196E-006	0.00000E+000	1.80000E-001	1.50229E-003	7	...........	-327.66
	900	1.802	1.70895E-001	-3.62638E-006	0.00000E+000	1.70000E-001	1.41953E-003	7	...........	-327.66

File: 20250509_IF0011_IIA42_PBSair_E04_E_CV50000_PEDOT.DTA
EXPLAIN
TAG	CV
TITLE	LABEL	CV50000	Test Identifier
DATE	LABEL	5/9/2025	Date
TIME	LABEL	14:57:06	Time
NOTES	NOTES	1	Notes...

PSTAT	PSTAT	REF600P-43058	Potentiostat
VINIT	POTEN	0.00000E+000	T	Initial E (V)
VLIMIT1	POTEN	-9.00000E-001	F	Scan Limit 1 (V)
VLIMIT2	POTEN	6.00000E-001	F	Scan Limit 2 (V)
VFINAL	POTEN	0.00000E+000	T	Final E (V)
SCANRATE	QUANT	4.99999E+004	Scan Rate (mV/s)
STEPSIZE	QUANT	1.00000E+001	Step Size (mV)
CYCLES	IQUANT	3	Cycles (#)
IMODE	SELECTOR	1	I/E Range Mode
IRANGE	QUANT	1.00000E-002	Max Current (mA)
AREA	QUANT	1.00000E+000	Sample Area (cm^2)
EQDELAY	QUANT	5.00000E+000	Equil. Time (s)
IRCOMP	SELECTOR	0	IRComp
PFCOR	QUANT	5.00000E+001	PF Corr. (ohm)
SAMPLINGMODE	SELECTOR	2	Sampling Mode
EOC	QUANT	0.1683657	Open Circuit (V)
ELECTRODETYPE	SELECTOR	0	Electrode Type
STRIPPING	TOGGLE	F	Used for Stripping
SEQUENCER	TOGGLE	TRUE	Run as Sequence
PSTATMODEL	IQUANT	7	Pstat Model
PSTATSECTION	LABEL	REF600P-43058	Pstat Section
PSTATSERIALNO	LABEL	43058	Pstat Serial Number
CTRLMODE	IQUANT	1	Control Mode
ELECTROMETER	IQUANT	0	RE=0 or CS=1
IESTAB	IQUANT	2	I/E Stability
CASPEED	IQUANT	4	Control Amp Speed
CONVENTION	IQUANT	1	Current Convention
ICHRANGE	IQUANT	2	Ich Range
ICHRANGEMODE	TOGGLE	F	Ich Auto Range
ICHOFFSETENABLE	TOGGLE	F	Ich Offset Enable
ICHOFFSET	QUANT	0	Ich Offset (V)
ICHFILTER	IQUANT	1	Ich Filter
VCHRANGE	IQUANT	2	Vch Range
VCHRANGEMODE	TOGGLE	F	Vch Auto Range
VCHOFFSETENABLE	TOGGLE	F	Vch Offset Enable
VCHOFFSET	QUANT	0	Vch Offset (V)
VCHFILTER	IQUANT	1	Vch Filter
ACHRANGE	IQUANT	2	Ach Range
ACHOFFSETENABLE	TOGGLE	F	Ach Offset Enable
ACHOFFSET	QUANT	0	Ach Offset (V)
ACHFILTER	IQUANT	1	Ach Filter
IERANGELOWERLIMIT	IQUANT	1	I/E Range Lower Limit
IERANGEMODE	TOGGLE	F	I/E AutoRange
IERANGE	IQUANT	7	I/E Range
POSFEEDENABLE	TOGGLE	F	Positive Feedback IR Comp
POSFEEDRESISTANCE	QUANT	0	Positive Feedback Resistance (ohm)
ACHSELECT	IQUANT	4	Ach Select
SENSECABLEID	IQUANT	7	Sense Cable ID
PWRCABLEID	IQUANT	7	Power Cable ID
DCCALDATE	LABEL	5/8/2025	DC Calibration Date
ACCALDATE	LABEL	5/8/2025	AC Calibration Date
THERMOSELECT	IQUANT	1	Thermo Select
FRAMEWORKVERSION	LABEL	7.10.4	Framework Version
INSTRUMENTVERSION	LABEL	5.01	Instrument Version
COMMVERSION	LABEL	5.10	Communications Version
CPUPLDVERSION	LABEL	6.00	CPU PLD Version
CTRLPLDVERSION	LABEL	3.21	CTRL PLD Version
PSTATPLDVERSION	LABEL	0.00	PSTAT PLD Version
CURVE1	TABLE
	Pt	T	Vf	Im	Vu	Sig	Ach	IERange	Over	Temp
	#	s	V vs. Ref.	A	V	V	V	#	bits	deg C
	0	0.0002	1.68750E-001	1.14055E-008	0.00000E+000	1.68350E-001	1.29022E-003	7	...........	-327.66
	3	0.0008	1.38425E-001	-3.28429E-006	0.00000E+000	1.38350E-001	1.06522E-003	7	...........	-327.66
	6	0.0014	1.08400E-001	-5.44109E-006	0.00000E+000	1.08350E-001	1.11522E-003	7	...........	-327.66
	9	0.002	7.83748E-002	-7.10906E-006	0.00000E+000	7.83500E-002	1.06522E-003	7	...........	-327.66
	12	0.0026	4.86873E-002	-8.52851E-006	0.00000E+000	4.83500E-002	1.11522E-003	7	...........	-327.66
	15	0.0032	1.84873E-002	-9.79718E-006	0.00000E+000	1.83500E-002	1.04022E-003	7	...........	-327.66
	18	0.0038	-1.14127E-002	-1.09706E-005	0.00000E+000	-1.16500E-002	1.11522E-003	7	...........	-327.66
	21	0.0044	-4.14377E-002	-1.20795E-005	0.00000E+000	-4.16500E-002	1.11522E-003	7	...........	-327.66
	24	0.005	-7.14502E-002	-1.31531E-005	0.00000E+000	-7.16500E-002	1.14022E-003	7	...........	-327.66
	27	0.0056	-1.01625E-001	-1.41913E-005	0.00000E+000	-1.01650E-001	1.11522E-003	7	...........	-327.66
	30	0.0062	-1.31538E-001	-1.52032E-005	0.00000E+000	-1.31650E-001	1.11522E-003	7	...........	-327.66
	33	0.0068	-1.61513E-001	-1.62071E-005	0.00000E+000	-1.61650E-001	1.21522E-003	7	...........	-327.66
	36	0.0074	-1.91363E-001	-1.71957E-005	0.00000E+000	-1.91650E-001	1.16522E-003	7	...........	-327.66
	39	0.008	-2.21463E-001	-1.81793E-005	0.00000E+000	-2.21650E-001	9.15224E-004	7	...........	-327.66
	42	0.0086	-2.51413E-001	-1.91610E-005	0.00000E+000	-2.51650E-001	1.14022E-003	7	...........	-327.66
	45	0.0092	-2.81525E-001	-2.01371E-005	0.00000E+000	-2.81650E-001	1.01522E-003	7	...........	-327.66
	48	0.0098	-3.11413E-001	-2.11127E-005	0.00000E+000	-3.11650E-001	1.11522E-003	7	...........	-327.66
	51	0.0104	-3.41563E-001	-2.20851E-005	0.00000E+000	-3.41650E-001	1.24022E-003	7	...........	-327.66
	54	0.011	-3.71400E-001	-2.30522E-005	0.00000E+000	-3.71650E-001	1.09022E-003	7	...........	-327.66
	57	0.0116	-4.01475E-001	-2.40109E-005	0.00000E+000	-4.01650E-001	1.19022E-003	7	...........	-327.66
	60	0.0122	-4.31288E-001	-2.49753E-005	0.00000E+000	-4.31650E-001	1.21522E-003	7	...........	-327.66
	63	0.0128	-4.61400E-001	-2.59289E-005	0.00000E+000	-4.61650E-001	1.16522E-003	7	...........	-327.66
	66	0.0134	-4.91375E-001	-2.68683E-005	0.00000E+000	-4.91650E-001	1.06522E-003	7	...........	-327.66
	69	0.014	-5.21513E-001	-2.78051E-005	0.00000E+000	-5.21650E-001	1.14022E-003	7	...........	-327.66
	72	0.0146	-5.51325E-001	-2.87238E-005	0.00000E+000	-5.51650E-001	1.24022E-003	7	...........	-327.66
	75	0.0152	-5.81325E-001	-2.96271E-005	0.00000E+000	-5.81650E-001	1.11522E-003	7	...........	-327.66
	78	0.0158	-6.11388E-001	-3.05063E-005	0.00000E+000	-6.11650E-001	1.14022E-003	7	...........	-327.66
	81	0.0164	-6.41288E-001	-3.13526E-005	0.00000E+000	-6.41650E-001	1.06522E-003	7	...........	-327.66
	84	0.017	-6.71350E-001	-3.21662E-005	0.00000E+000	-6.71650E-001	1.06522E-003	7	...........	-327.66
	87	0.0176	-7.01250E-001	-3.29398E-005	0.00000E+000	-7.01650E-001	1.19022E-003	7	...........	-327.66
	90	0.0182	-7.31275E-001	-3.36514E-005	0.00000E+000	-7.31650E-001	1.14022E-003	7	...........	-327.66
	93	0.0188	-7.61388E-001	-3.42975E-005	0.00000E+000	-7.61650E-001	9.15224E-004	7	...........	-327.66
	96	0.0194	-7.91300E-001	-3.48503E-005	0.00000E+000	-7.91650E-001	1.21522E-003	7	...........	-327.66
	99	0.02	-8.21263E-001	-3.52892E-005	0.00000E+000	-8.21650E-001	1.14022E-003	7	...........	-327.66
	102	0.0206	-8.51313E-001	-3.55872E-005	0.00000E+000	-8.51650E-001	1.06522E-003	7	...........	-327.66
	105	0.0212	-8.81413E-001	-3.57057E-005	0.00000E+000	-8.81650E-001	1.09022E-003	7	...........	-327.66
	108	0.0218	-8.91375E-001	-3.35019E-005	0.00000E+000	-8.91650E-001	1.19022E-003	7	...........	-327.66
	111	0.0224	-8.61463E-001	-2.81194E-005	0.00000E+000	-8.61650E-001	1.11522E-003	7	...........	-327.66
	114	0.023	-8.31375E-001	-2.41419E-005	0.00000E+000	-8.31650E-001	1.01522E-003	7	...........	-327.66
	117	0.0236	-8.01413E-001	-2.07372E-005	0.00000E+000	-8.01650E-001	1.14022E-003	7	...........	-327.66
	120	0.0242	-7.71388E-001	-1.76385E-005	0.00000E+000	-7.71650E-001	1.06522E-003	7	...........	-327.66
	123	0.0248	-7.41425E-001	-1.47464E-005	0.00000E+000	-7.41650E-001	1.24022E-003	7	...........	-327.66
	126	0.0254	-7.11388E-001	-1.19992E-005	0.00000E+000	-7.11650E-001	1.09022E-003	7	...........	-327.66
	129	0.026	-6.81475E-001	-9.38788E-006	0.00000E+000	-6.81650E-001	1.01522E-003	7	...........	-327.66
	132	0.0266	-6.51388E-001	-6.89104E-006	0.00000E+000	-6.51650E-001	1.01522E-003	7	...........	-327.66
	135	0.0272	-6.21500E-001	-4.50596E-006	0.00000E+000	-6.21650E-001	1.16522E-003	7	...........	-327.66
	138	0.0278	-5.91425E-001	-2.22940E-006	0.00000E+000	-5.91650E-001	1.29022E-003	7	...........	-327.66
	141	0.0284	-5.61525E-001	-5.06030E-008	0.00000E+000	-5.61650E-001	1.11522E-003	7	...........	-327.66
[...]
	865	0.1732	5.19912E-001	1.57921E-005	0.00000E+000	5.20000E-001	1.14022E-003	7	...........	-327.66
	866	0.1734	5.10012E-001	1.46817E-005	0.00000E+000	5.10000E-001	1.11522E-003	7	...........	-327.66
	867	0.1736	4.99975E-001	1.36373E-005	0.00000E+000	5.00000E-001	1.14022E-003	7	...........	-327.66
	868	0.1738	4.89937E-001	1.26479E-005	0.00000E+000	4.90000E-001	1.11522E-003	7	...........	-327.66
	869	0.174	4.79975E-001	1.17032E-005	0.00000E+000	4.80000E-001	1.11522E-003	7	...........	-327.66
	870	0.1742	4.69987E-001	1.08004E-005	0.00000E+000	4.70000E-001	1.11522E-003	7	...........	-327.66
	871	0.1744	4.59962E-001	9.93401E-006	0.00000E+000	4.60000E-001	1.04022E-003	7	...........	-327.66
	872	0.1746	4.50200E-001	9.10414E-006	0.00000E+000	4.50000E-001	1.14022E-003	7	...........	-327.66
	873	0.1748	4.39962E-001	8.30329E-006	0.00000E+000	4.40000E-001	1.16522E-003	7	...........	-327.66
	874	0.175	4.30112E-001	7.52768E-006	0.00000E+000	4.30000E-001	1.29022E-003	7	...........	-327.66
	875	0.1752	4.20037E-001	6.78108E-006	0.00000E+000	4.20000E-001	1.06522E-003	7	...........	-327.66
	876	0.1754	4.09975E-001	6.05423E-006	0.00000E+000	4.10000E-001	1.06522E-003	7	...........	-327.66
	877	0.1756	4.00050E-001	5.35513E-006	0.00000E+000	4.00000E-001	1.11522E-003	7	...........	-327.66
	878	0.1758	3.89987E-001	4.66754E-006	0.00000E+000	3.90000E-001	1.09022E-003	7	...........	-327.66
	879	0.176	3.79987E-001	4.00395E-006	0.00000E+000	3.80000E-001	1.21522E-003	7	...........	-327.66
	880	0.1762	3.70000E-001	3.35586E-006	0.00000E+000	3.70000E-001	1.04022E-003	7	...........	-327.66
	881	0.1764	3.60012E-001	2.72403E-006	0.00000E+000	3.60000E-001	1.29022E-003	7	...........	-327.66
	882	0.1766	3.50062E-001	2.10894E-006	0.00000E+000	3.50000E-001	1.14022E-003	7	...........	-327.66
	883	0.1768	3.40037E-001	1.50611E-006	0.00000E+000	3.40000E-001	1.14022E-003	7	...........	-327.66
	884	0.177	3.30062E-001	9.21780E-007	0.00000E+000	3.30000E-001	1.14022E-003	7	...........	-327.66
	885	0.1772	3.20112E-001	3.46451E-007	0.00000E+000	3.20000E-001	1.14022E-003	7	...........	-327.66
	886	0.1774	3.10062E-001	-2.22376E-007	0.00000E+000	3.10000E-001	1.06522E-003	7	...........	-327.66
	887	0.1776	3.00062E-001	-7.74202E-007	0.00000E+000	3.00000E-001	1.11522E-003	7	...........	-327.66
	888	0.1778	2.90125E-001	-1.31227E-006	0.00000E+000	2.90000E-001	1.11522E-003	7	...........	-327.66
	889	0.178	2.80062E-001	-1.84060E-006	0.00000E+000	2.80000E-001	1.16522E-003	7	...........	-327.66
	890	0.1782	2.70187E-001	-2.36517E-006	0.00000E+000	2.70000E-001	9.90224E-004	7	...........	-327.66
	891	0.1784	2.59987E-001	-2.87599E-006	0.00000E+000	2.60000E-001	1.04022E-003	7	...........	-327.66
	892	0.1786	2.50150E-001	-3.37456E-006	0.00000E+000	2.50000E-001	1.16522E-003	7	...........	-327.66
	893	0.1788	2.40025E-001	-3.87187E-006	0.00000E+000	2.40000E-001	1.24022E-003	7	...........	-327.66
	894	0.179	2.30150E-001	-4.36044E-006	0.00000E+000	2.30000E-001	1.11522E-003	7	...........	-327.66
	895	0.1792	2.20150E-001	-4.84176E-006	0.00000E+000	2.20000E-001	1.06522E-003	7	...........	-327.66
	896	0.1794	2.10225E-001	-5.31432E-006	0.00000E+000	2.10000E-001	1.04022E-003	7	...........	-327.66
	897	0.1796	2.00025E-001	-5.77688E-006	0.00000E+000	2.00000E-001	1.16522E-003	7	...........	-327.66
	898	0.1798	1.90187E-001	-6.23220E-006	0.00000E+000	1.90000E-001	1.14022E-003	7	...........	-327.66
	899	0.18	1.80037E-001	-6.68776E-006	0.00000E+000	1.80000E-001	1.14022E-003	7	...........	-327.66
	900	0.1802	1.70175E-001	-7.13332E-006	0.00000E+000	1.70000E-001	8.65224E-004	7	...........	-327.66